Folder: xraylarch/dylibs/XDI

Note: README.md
## Larch:  Data Analysis Tools for X-ray Spectroscopy and More


[![A](https://github.com/xraypy/xraylarch/actions/workflows/test-ubuntu.yml/badge.svg)](https://github.com/xraypy/xraylarch/actions/workflows/test-ubuntu.yml)
[![B](https://github.com/xraypy/xraylarch/actions/workflows/test-windows.yml/badge.svg)](https://github.com/xraypy/xraylarch/actions/workflows/test-windows.yml)
[Documentation](http://xraypy.github.io/xraylarch)
.. _scipy: https://scipy.org/
.. _numpy: https://numpy.scipy.org/
.. _matplotlib: https://matplotlib.org/
.. _h5py: https://code.google.com/p/h5py/
.. _Demeter: https://bruceravel.github.io/demeter/



Larch is an open-source library and set of applications for processing and
analyzing X-ray absorption and fluorescence spectroscopy data and X-ray
fluorescence and diffraction image data from synchrotron beamlines.  It is
especially focussed on X-ray absorption fine-structure spectroscopy (XAFS)
including X-ray absorption near-edge spectroscopy (XANES) and extended
X-ray absorption fine-structure spectroscopy (EXAFS). It also supports
visualization and analysis tools for X-ray fluorescence (XRF) spectra and
XRF and X-ray diffraction (XRD) images as collected at scanning X-ray
microprobe beamlines.

Larch is written in Python, making heavy use of the excellent scientific
python libraries (`numpy`_, `scipy`_, `h5py`_, `matplotlib`_, and many
more). Larch can be used as a Python library for processing and analyzing
X-ray spectroscopy and imaging data. In addition, the applications built
with it also use a built-in Python-like macro language for interactive and
batch processing.  This embedded "miniPython" language is intended to be very
easy to use for novices while also being complete enough to automate data
processing and analysis and to encourage and facilitate a gentle transition
to transition from GUI-only analyses to scripted and programmatic analysis
of larger data sets, and allows Larch to be run as a
service, interacting with other processes or languages via XML-RPC, and so
be used by the popular `Demeter`_ XAFS application suite.


Larch is distributed under an open-source license that is nearly identical
to the BSD license.  It is under active and open development centered at
the GeoScoilEnviroCARS sector of the Center for Advanced Radiation Sources at
the University of Chicago has been supported by the US National Science
Foundation - Earth Sciences (EAR-1128799), and Department of Energy
GeoSciences (DE-FG02-94ER14466).  In addition, funding specifically for
Larch was granted by the National Science Foundation - Advanced
CyberInfrastructure (ACI-1450468).

The best citable reference for Larch is M. Newville, *Larch: An Analysis
Package For XAFS And Related Spectroscopies*. Journal of Physics:
Conference Series, 430:012007 (2013).

## Larch Applications

These applications installed with Larch, in addition to a basic Python
library. Here, GUI = Graphical User Interface, CLI = Command Line
Interface, and `beta` i

File: cu_metal_rt.xdi
# XDI/1.0 GSE/1.0
# Column.1: energy eV
# Column.2: i0
# Column.3: itrans
# Column.4: mutrans
# Element.edge: K
# Element.symbol: Cu
# Scan.edge_energy: 8980.0
# Mono.name: Si 111
# Mono.d_spacing: 3.13553
# Beamline.name: 13ID
# Beamline.collimation: none
# Beamline.focusing: yes
# Beamline.harmonic_rejection: rhodium-coated mirror
# Facility.name: APS
# Facility.energy: 7.00 GeV
# Facility.xray_source: APS Undulator A
# Scan.start_time: 2001-06-26T22:27:31
# Detector.I0: 10cm  N2
# Detector.I1: 10cm  N2
# Sample.name: Cu
# Sample.prep: Cu metal foil
# GSE.EXTRA:  config 1
# ///
# Cu foil Room Temperature
# measured at beamline 13-ID
#----
# energy i0 itrans mutrans
  8779.0  149013.7  550643  -1.30705
  8799.0  132978.7  489591  -1.30338
  8819.0  121324.7  449969  -1.31071
  8839.0  119100.7  440176  -1.30721
  8859.0  117754.7  442302  -1.32339
  8879.0  117383.7  442810  -1.327693
  8899.0  117058.7  444213  -1.33363
  8919.0  117332.7  447444  -1.33854
  8939.0  117756.7  450590  -1.34194
  8959.0  117458.7  448318  -1.33942
  8960.0  119008.7  453897  -1.33867
  8961.0  121659.7  463407  -1.33738
  8962.0  121394.7  462122  -1.33678
  8963.0  120769.7  459282  -1.33578
  8964.0  120395.7  457426  -1.33483
  8965.0  120917.7  458901  -1.33372
  8966.0  120788.7  457767  -1.33232
  8967.0  120809.7  456945  -1.33035
  8968.0  121040.7  456712  -1.32793
  8969.0  120986.7  455646  -1.32604
  8970.0  121113.7  454700  -1.32291
  8971.0  120024.7  449150  -1.31966
  8972.0  120769.7  449996  -1.31535
  8973.0  120328.7  445849  -1.30975
  8974.0  120519.7  443087  -1.30195
  8975.0  120678.7  439452  -1.2924
  8976.0  120656.7  433022  -1.27784
  8977.0  120421.7  422855  -1.25603
  8978.0  120630.7  407292  -1.2168
  8979.0  120832.7  373749  -1.12918
  8980.0  120305.7  285470  -0.864101
  8981.0  120519.7  169329  -0.340031
  8982.0  121788.7  130447  -0.0686802
  8983.0  121266.7  125935  -0.0377744
  8984.0  120930.7  134301  -0.104867
  8985.0  120680.7  134201  -0.106191
  8986.0  121052.7  120751  0.00249459
  8987.0  120819.7  108683  0.105863
  8988.0  120647.7  97879.1  0.209142
  8989.0  121405.7  86074.1  0.343929
  8990.0  121046.7  70957.1  0.534101
  8991.0  120832.7  56482.1  0.760483
  8992.0  121341.7  44121.1  1.01167
  8993.0  120950.7  34973.1  1.2408
  8994.0  120954.7  29573.1  1.40855
  8995.0  121337.7  27885.1  1.47049
  8996.0  121141.7  29094.1  1.42643
  8997.0  120941.7  31979.1  1.330226
  8998.0  121188.7  34974.1  1.242741
  8999.0  120996.7  37194.1  1.17961
  9000.0  121314.7  37878.1  1.16401
  9001.0  121360.7  36173.1  1.21045
  9002.0  120951.7  32474.1  1.31495
  9003.0  120998.7  28755.1  1.43696
  9004.0  120709.7  26687.1  1.50921
  9005.988  120887.7  29580.1  1.40776
  9008.053  120984.7  34952.1  1.24169
  9010.193  120735.7  39018.1  1.12958
  9012.41  120715.7  41985.1  1.05612
  9014.703  120629.7  41188.1  1.07458
  9017.072  120875.7  38874.1  1.13443
  9019.518  120999.7  34899.1  1.243327
  9022.038  120685.7  31044.1  1.35778
  9024.636  120691.7  28068.1  1.45861
  9027.309  120616.7  26972.1  1.49781
  9030.059  120639.7  29626.1  1.40415
  9032.884  120036.7  33733.1  1.269318
  9035.785  120948.7  36969.1  1.18528
  9038.763  120756.7  37556.1  1.167942
  9041.816  120826.7  36312.1  1.20221
  9044.946  120299.7  35704.1  1.21472
  9048.152  120559.7  36016.1  1.208179
  9051.434  120443.7  34485.1  1.25066
  9054.792  120364.7  34082.1  1.261754
  9058.227  120521.7  33383.1  1.28378
  9061.736  120426.7  31464.1  1.34219
  9065.322  120372.7  30307.1  1.37921
  9068.985  119794.7  28765.1  1.42662
  9072.724  120213.7  27425.1  1.47781
  9076.538  120588.7  28291.1  1.44984
  9080.429  120842.7  31326.1  1.35004
  9084.396  120409.7  34085.1  1.26204
  9088.438  120150.7  36140.1  1.20134
  9092.557  120386.7  37604.1  1.163596
  9096.752  120531.7  40824.1  1.08264
  9101.023  120209.7  41889.1  1.05421
  9105.37  120119.7  39534.1  1.11133
  9109.794  120161.7  36531.1  1.19067
  9114.293  120580.7  35045.1  1.23568
  9118.868  120496.7  35055.1  1.2347
  9123.52  120422.7  34006.1  1.26447
  9128.247  119965.7  29872.1  1.39028
  9133.051  120415.7  27888.1  1.46275
  9137.931  120311.7  28653.1  1.43482
  9142.887  120547.7  30753.1  1.36605
  9147.919  120056.7  34512.1  1.24665
  9153.026  120206.7  39929.1  1.10211
  9158.211  120626.7  45214.1  0.981292
  9163.471  120273.7  45254.1  0.977477
  9168.807  120444.7  40699.1  1.08498
  9174.22  120845.7  37318.1  1.17504
  9179.708  121351.7  36775.1  1.193872
  9185.272  120590.7  37293.1  1.17359
  9190.913  120539.7  37571.1  1.165744
  9196.63  120077.7  38292.1  1.1429
  9202.422  120308.7  37629.1  1.16228
  9208.291  120270.7  34788.1  1.24047
  9214.236  120286.7  34422.1  1.25118
  9220.257  120255.7  35426.1  1.22217
  9226.354  120288.7  38259.1  1.14551
  9232.527  120443.7  41725.1  1.06008
  9238.776  120132.7  43976.1  1.00495
  9245.103  119841.7  43872.1  1.00489
  9251.504  120114.7  43643.1  1.0124
  9257.981  120260.7  43532.1  1.01616
  9264.535  120126.7  42948.1  1.02855
  9271.164  120157.7  42158.1  1.04738
  9277.87  120169.7  41539.1  1.06227
  9284.652  120351.7  41379.1  1.06764
  9291.51  120091.7  41074.1  1.07288
  9298.444  120056.7  41011.1  1.07412
  9305.454  119816.7  41831.1  1.052323
  9312.541  120022.7  43585.1  1.01297
  9319.703  120180.7  45080.1  0.980556
  9326.941  119937.7  45658.1  0.965791
  9334.256  120584.7  46387.1  0.955331
  9341.646  119941.7  47571.1  0.92478
  9349.113  120658.7  48430.1  0.912844
  9356.655  120594.7  48296.1  0.915085
  9364.274  120544.7  48194.1  0.916784
  9371.97  119833.7  47737.1  0.920396
  9379.74  119774.7  47635.1  0.922043
  9387.588  119193.7  47342.1  0.92335
  9395.511  120139.7  47793.1  0.921774
  9403.51  120156.7  48199.1  0.913456
  9411.585  119994.7  49126.1  0.893057
  9419.736  120771.7  50685.1  0.86827
  9427.964  120472.7  51266.1  0.854393
  9436.268  120331.7  51607.1  0.846593
  9444.647  120383.7  52122.1  0.8370951
  9453.104  119875.7  52796.1  0.820018
  9461.635  120309.7  53664.1  0.807325
  9470.243  119942.7  54020.1  0.797658
  9478.927  120507.7  54672.1  0.79036
  9487.688  120171.7  54670.1  0.787605
  9496.523  120128.7  54699.1  0.786716
  9505.436  120104.7  54722.1  0.786096
  9514.424  120425.7  55198.1  0.780104
  9523.488  119957.7  55765.1  0.765991
  9532.629  120462.7  57028.1  0.747796
  9541.846  120638.7  57860.1  0.7347721
  9551.139  119757.7  58064.1  0.723923
  9560.507  120691.7  59015.1  0.715446
  9569.952  120488.7  59557.1  0.70462
  9579.473  119666.7  59725.1  0.694958
  9589.07  120236.7  60725.1  0.683105
  9598.743  120575.7  61432.1  0.674345
  9608.492  120687.7  61928.1  0.667232
  9618.317  120555.7  62298.1  0.660181
  9628.219  120302.7  62593.1  0.653356
  9638.196  119444.7  62603.1  0.646039
  9648.25  120287.7  63658.1  0.6363598
  9658.38  120259.7  64317.1  0.625828
  9668.585  119574.7  64653.1  0.614905
  9678.867  119220.7  65167.1  0.604022
  9689.225  119505.7  66023.1  0.593359
  9699.659  119955.7  67005.1  0.582354
  9710.169  120622.7  68014.1  0.572952
  9720.756  120837.7  68809.1  0.563112
  9731.418  121236.7  69725.1  0.553184
  9742.156  107370.7  62341.1  0.543666
  9752.971  125993.7  73628.1  0.537205
  9763.861  123473.7  72768.1  0.528751
  9774.827  120596.7  71578.1  0.521663
  9785.87  120693.7  72313.1  0.512251
  9796.988  119957.7  72445.1  0.50431
  9808.184  120286.7  73312.1  0.495152
  9819.454  119952.7  73787.1  0.485914
  9830.802  119756.7  74360.1  0.476543
  9842.225  120129.7  75308.1  0.466984
  9853.724  120016.7  75935.1  0.457752
  9865.299  121396.7  77520.1  0.448526
  9876.95  119624.7  77074.1  0.439592
  9888.678  120845.7  78576.1  0.430447
  9900.481  120620.7  79145.1  0.421368
  9912.361  120866.7  79982.1  0.412885
  9924.316  120895.7  80681.1  0.404424
  9936.349  121041.7  81528.1  0.395187
  9948.456  120201.7  81688.1  0.386263
  9960.641  118731.7  81431.1  0.377109
  9972.9  121011.7  83754.1  0.368002
  9985.236  119350.7  83317.1  0.359412
  9997.648  119823.7  84391.1  0.35056
  10010.14  119384.7  84846.1  0.341512
  10022.7  120716.7  86580.1  0.332376
  10035.34  118950.7  86100.1  0.323199
  10048.06  121382.7  88605.1  0.314759
  10060.85  119951.7  88304.1  0.306303
  10073.72  118833.7  88265.1  0.29738
  10086.66  117995.7  88449.1  0.288221
  10099.69  117303.7  88720.1  0.27928
  10112.78  116857.7  89144.1  0.270703
  10125.96  111467.7  85797.1  0.26175
  10139.21  104190.7  80953.1  0.2523529
  10145.86  93726.7  73074.1  0.248909